//----------------------------------------
//Multipak Exporter  1.2.5
//Load file from XPS_PHI_QUANTERA_survey.spe
//----------------------------------------
//----------------------------------------
//HEADER INFORMATION
Platform:PC
Technique:XPS
FileType:SPECTRUM
FileDesc:MIDATA001
SoftwareVersion:SS 3.6.1.16
InstrumentModel:PHI Quantera SXM
AcqFilename:C:\Datafiles\Butuzai\XPS_PHI_QUANTERA_survey.spe
FileDate:2017 6 6
AcqFileDate:2017 6 6
Institution:
Operator:
ExperimentID:20170606
AnalyserWorkFcn:4.250 eV
PlatenID:MIDATA001
PlatenDesc:
PhotoFilename:MIDATA001.101.pho
SXIFilename:
SourceAnalyserAngle:45.0 d
AnalyserSolidAngle:0.38 sr
SputterIon:Ar+
SputterCurrent:0.000 uA
SputterEnergy:0.107 kV
FloatVolt:-100.0 V
SputterRaster:0.00 0.00 mm
AnalyserMode:FAT
SurvNumCycles:1
NoSpectralReg:1
SpectralRegDef:1 1 Su1s 111 2801 -0.5000 1380.0000 -20.0000 1379.0000 -19.0000 0.251496 280.00 AREA
SpectralRegDef2:1 1400.0 7 0 2 1
NoSpatialArea:1
SpatialAreaDef:1 HP3 4 (-20651.4 -21601.7 24061.0 45.0 0.0) (-19251.4 -21601.7 24061.0 45.0 0.0) (-19251.4 -21501.7 24061.0 45.0 0.0) (-20651.4 -21501.7 24061.0 45.0 0.0)
SpatialAreaDesc:1 #3 Cu foil
XraySource:Al 1486.6 mono
XrayPower:103.08 W
XrayBeamDiameter:100.0 um
XRayHighPower:yes
NeutralizerCurrent:20.0 uA
NeutralizerEnergy:1.40 V
StagePosition:-20.1680 23.2019 24.0607 45.0000 0.0044
ImageSizeXY: 1400.0000 100.0000 Area


//Area Comment,RegionNo,AtomicName,Area No,XLabel,YLabel,DataCount
#3 Cu foil
1
Survey
1
Binding Energy(eV),reverse
Intensity(cps)
2801
1380.0000	333762.7500
1379.5000	331214.0000
1379.0000	324780.5000
1378.5000	321317.2500
1378.0000	317070.6563
1377.5000	311372.7500
1377.0000	307913.4375
1376.5000	307682.8125
1376.0000	302529.6563
1375.5000	299404.3750
1375.0000	292982.7813
1374.5000	289766.0313
1374.0000	285082.0625
1373.5000	279650.5625
1373.0000	277360.2813
1372.5000	275936.7813
1372.0000	268385.9688
1371.5000	266930.6875
1371.0000	263451.5000
1370.5000	260620.4531
1370.0000	255674.0469
1369.5000	253960.2969
1369.0000	252691.8906
1368.5000	248445.2969
1368.0000	244202.6875
1367.5000	241816.9688
1367.0000	240560.4844
1366.5000	238274.1719
1366.0000	236663.7969
1365.5000	234707.5156
1365.0000	232822.7813
1364.5000	231594.1406
1364.0000	230810.8281
1363.5000	227506.5938
1363.0000	225669.5938
1362.5000	224027.4219
1362.0000	221379.2656
1361.5000	222285.8438
1361.0000	219661.5469
1360.5000	216814.5781
1360.0000	216917.9688
1359.5000	215335.4375
1359.0000	214452.7188
1358.5000	212925.8594
1358.0000	212349.2969
1357.5000	211355.2500
1357.0000	209057.0000
1356.5000	207140.4688
1356.0000	207363.1406
1355.5000	204198.0781
1355.0000	206496.3281
1354.5000	204003.2500
1354.0000	204261.7031
1353.5000	202850.1406
1353.0000	201116.5156
1352.5000	203617.5469
1352.0000	199995.2344
1351.5000	198838.1563
1351.0000	200480.3281
1350.5000	196913.6719
1350.0000	198030.9844
1349.5000	197040.9063
1349.0000	196559.7813
1348.5000	196007.0938
1348.0000	197466.3594
1347.5000	195446.4531
1347.0000	194710.8438
1346.5000	194404.6875
1346.0000	194750.6094
1345.5000	194376.8438
1345.0000	193688.9688
1344.5000	193211.8281
1344.0000	193867.8906
1343.5000	193219.7656
1343.0000	193669.0781
1342.5000	193092.5313
1342.0000	191506.0313
1341.5000	192090.5313
1341.0000	192102.4531
1340.5000	192249.5781
1340.0000	192694.9063
1339.5000	192062.7031
1339.0000	192352.9531
1338.5000	191573.6250
1338.0000	191764.4844
1337.5000	192849.9844
1337.0000	192730.7031
1336.5000	191680.9844
1336.0000	192667.0781
1335.5000	192527.9063
1335.0000	192782.3906
1334.5000	193637.2813
1334.0000	191335.0469
1333.5000	193887.7813
1333.0000	190977.1875
1332.5000	191776.4063
1332.0000	191565.6719
1331.5000	192106.4375
1331.0000	191434.4531
1330.5000	192400.6719
1330.0000	192718.7656
1329.5000	193490.1563
1329.0000	193533.8906
1328.5000	194587.5938
1328.0000	192285.3594
1327.5000	194193.9375
1327.0000	192933.4844
1326.5000	194897.7344
1326.0000	193207.8438
1325.5000	196424.5938
1325.0000	195251.6094
1324.5000	196205.9063
1324.0000	194265.5156
1323.5000	196170.1250
1323.0000	197203.9375
1322.5000	197017.0469
1322.0000	196977.2813
1321.5000	196595.5781
1321.0000	197251.6406
1320.5000	196965.3594
1320.0000	197879.8906
1319.5000	199470.3750
1319.0000	198830.2031
1318.5000	197720.8438
1318.0000	201386.9063
1317.5000	198846.1094
1317.0000	200571.7813
1316.5000	201100.6094
1316.0000	201776.5625
1315.5000	201446.5469
1315.0000	202341.1875
1314.5000	201331.2344
1314.0000	203430.6719
1313.5000	203780.5781
1313.0000	203768.6406
1312.5000	202730.8594
1312.0000	204826.3125
1311.5000	206015.2031
1311.0000	204388.9375
1310.5000	206667.2969
1310.0000	207498.3281
1309.5000	206711.0469
1309.0000	209188.2188
1308.5000	211494.4219
1308.0000	211621.6563
1307.5000	210814.4844
1307.0000	213045.1406
1306.5000	212146.5156
1306.0000	213776.7656
1305.5000	215108.7813
1305.0000	215566.0469
1304.5000	218715.2031
1304.0000	217069.0625
1303.5000	218794.7344
1303.0000	218206.2500
1302.5000	218743.0469
1302.0000	219212.2344
1301.5000	217800.6875
1301.0000	219502.5000
1300.5000	219482.6094
1300.0000	219434.9063
1299.5000	220476.6719
1299.0000	221872.3125
1298.5000	221745.0781
1298.0000	221741.0938
1297.5000	223411.1094
1297.0000	223454.8438
1296.5000	224560.2344
1296.0000	223387.2500
1295.5000	227538.4063
1295.0000	226158.6719
1294.5000	227832.6563
1294.0000	226683.5313
1293.5000	228512.5781
1293.0000	226862.4531
1292.5000	228914.1719
1292.0000	229796.8906
1291.5000	231037.4688
1291.0000	231729.3281
1290.5000	232468.9063
1290.0000	231645.8281
1289.5000	233546.4531
1289.0000	232142.8594
1288.5000	234258.2031
1288.0000	233657.7969
1287.5000	234866.5625
1287.0000	234608.1094
1286.5000	235932.1875
1286.0000	235606.1406
1285.5000	236178.7031
1285.0000	236592.2344
1284.5000	236182.6875
1284.0000	239936.2188
1283.5000	238393.4531
1283.0000	240139.0156
1282.5000	239634.0313
1282.0000	240691.7031
1281.5000	240803.0313
1281.0000	240799.0625
1280.5000	239236.4063
1280.0000	242286.1563
1279.5000	241264.2813
1279.0000	242139.0469
1278.5000	241335.8438
1278.0000	243912.4219
1277.5000	241948.1875
1277.0000	244878.6406
1276.5000	245753.4063
1276.0000	246095.3594
1275.5000	244803.0938
1275.0000	245244.4531
1274.5000	247956.2344
1274.0000	248266.3750
1273.5000	247228.5781
1273.0000	248409.5156
1272.5000	247920.4375
1272.0000	248687.8594
1271.5000	248453.2500
1271.0000	248055.6406
1270.5000	247944.2969
1270.0000	250886.6875
1269.5000	249546.7188
1269.0000	252318.1250
1268.5000	253825.1094
1268.0000	252632.2500
1267.5000	253351.9375
1267.0000	253113.3750
1266.5000	252075.5781
1266.0000	255196.9063
1265.5000	255173.0469
1265.0000	254564.6875
1264.5000	255884.7813
1264.0000	256342.0469
1263.5000	256314.2188
1263.0000	257729.7500
1262.5000	255451.3750
1262.0000	256930.5313
1261.5000	258417.6250
1261.0000	258560.7656
1260.5000	259980.2813
1260.0000	258075.6719
1259.5000	260513.0938
1259.0000	260791.4219
1258.5000	261189.0469
1258.0000	260099.5625
1257.5000	263630.4375
1257.0000	262346.1250
1256.5000	263208.9688
1256.0000	263105.5625
1255.5000	265348.1563
1255.0000	265431.6563
1254.5000	265690.1250
1254.0000	265065.8438
1253.5000	266556.9375
1253.0000	269745.8438
1252.5000	266715.9688
1252.0000	267694.1250
1251.5000	269463.5313
1251.0000	268441.6563
1250.5000	269511.2500
1250.0000	272652.4375
1249.5000	271177.2813
1249.0000	270688.1875
1248.5000	272107.7188
1248.0000	272652.4375
1247.5000	274119.6563
1247.0000	274127.6250
1246.5000	271972.5313
1246.0000	274489.4688
1245.5000	273566.9688
1245.0000	275881.1250
1244.5000	276604.8125
1244.0000	279304.6563
1243.5000	276334.4063
1243.0000	278290.7188
1242.5000	281376.2500
1242.0000	280402.0625
1241.5000	281590.9688
1241.0000	280437.8750
1240.5000	282123.7813
1240.0000	281893.1563
1239.5000	283849.4375
1239.0000	282481.6250
1238.5000	284310.6875
1238.0000	285746.0938
1237.5000	283487.6250
1237.0000	284362.3750
1236.5000	285348.4688
1236.0000	285714.2813
1235.5000	286871.3750
1235.0000	286509.5313
1234.5000	288473.7813
1234.0000	289125.8750
1233.5000	289551.3125
1233.0000	290306.8125
1232.5000	290282.9375
1232.0000	292426.1250
1231.5000	292271.0625
1231.0000	291770.0625
1230.5000	295094.1563
1230.0000	294684.5938
1229.5000	296191.5938
1229.0000	296159.7813
1228.5000	295098.1250
1228.0000	299217.4688
1227.5000	297611.0938
1227.0000	299654.8750
1226.5000	300851.7188
1226.0000	299857.6563
1225.5000	299133.9688
1225.0000	300139.9688
1224.5000	301404.4063
1224.0000	302605.2188
1223.5000	301984.9375
1223.0000	302986.9375
1222.5000	303126.0938
1222.0000	304740.4375
1221.5000	304430.2813
1221.0000	304235.4688
1220.5000	303153.9375
1220.0000	305658.9375
1219.5000	304124.1250
1219.0000	304509.8125
1218.5000	304501.8750
1218.0000	305682.7813
1217.5000	305404.4688
1217.0000	303547.5625
1216.5000	304203.6563
1216.0000	304979.0000
1215.5000	305563.5000
1215.0000	305448.1875
1214.5000	306871.6875
1214.0000	306541.6563
1213.5000	305814.0000
1213.0000	308028.7500
1212.5000	305647.0000
1212.0000	307388.5938
1211.5000	306835.9063
1211.0000	308394.5625
1210.5000	307690.7813
1210.0000	306744.4375
1209.5000	308621.2188
1209.0000	308553.6250
1208.5000	310438.3438
1208.0000	310613.2813
1207.5000	311627.2188
1207.0000	312354.8750
1206.5000	313197.8125
1206.0000	314164.0313
1205.5000	311408.5313
1205.0000	312688.8750
1204.5000	314076.5625
1204.0000	313527.8438
1203.5000	318291.3438
1203.0000	314824.0938
1202.5000	316756.5313
1202.0000	316076.5938
1201.5000	317583.5938
1201.0000	317623.3438
1200.5000	316271.4375
1200.0000	319193.9375
1199.5000	318840.0625
1199.0000	320215.8438
1198.5000	320255.5938
1198.0000	320092.5625
1197.5000	320195.9375
1197.0000	322931.5625
1196.5000	322561.7813
1196.0000	321428.5625
1195.5000	324255.6563
1195.0000	324931.5938
1194.5000	325949.5313
1194.0000	325126.4375
1193.5000	326522.0938
1193.0000	324975.3438
1192.5000	326593.6563
1192.0000	326752.7188
1191.5000	329245.7813
1191.0000	326371.0000
1190.5000	330498.3125
1190.0000	327070.8125
1189.5000	331162.3125
1189.0000	330482.4063
1188.5000	330709.0313
1188.0000	331778.6250
1187.5000	331464.5313
1187.0000	332669.3125
1186.5000	333337.3125
1186.0000	334279.6563
1185.5000	332713.0313
1185.0000	333842.2813
1184.5000	334442.6875
1184.0000	334335.3438
1183.5000	334939.7188
1183.0000	335719.0625
1182.5000	336315.5000
1182.0000	337253.8750
1181.5000	337647.5313
1181.0000	337945.7188
1180.5000	340001.4375
1180.0000	340323.5000
1179.5000	339317.5313
1179.0000	341747.0000
1178.5000	340164.4688
1178.0000	341508.4063
1177.5000	340991.5000
1177.0000	341743.0000
1176.5000	343862.3125
1176.0000	342888.1563
1175.5000	343496.5313
1175.0000	344267.9063
1174.5000	343468.6875
1174.0000	345882.2500
1173.5000	345285.8125
1173.0000	347230.1875
1172.5000	347297.7813
1172.0000	347373.3125
1171.5000	349850.5000
1171.0000	346236.1250
1170.5000	352912.1875
1170.0000	350534.4063
1169.5000	351572.1875
1169.0000	351309.7500
1168.5000	351623.8750
1168.0000	351393.2500
1167.5000	353385.3438
1167.0000	355870.4688
1166.5000	354268.0625
1166.0000	354379.4063
1165.5000	354709.4063
1165.0000	358586.2188
1164.5000	356582.2188
1164.0000	358132.9375
1163.5000	356761.1563
1163.0000	358952.0313
1162.5000	360562.4063
1162.0000	358948.0625
1161.5000	358995.7813
1161.0000	358705.5000
1160.5000	361496.8125
1160.0000	359552.4375
1159.5000	362562.4375
1159.0000	363608.1563
1158.5000	363787.0938
1158.0000	364566.4375
1157.5000	364805.0000
1157.0000	364379.5625
1156.5000	366995.9063
1156.0000	369262.3438
1155.5000	367500.8750
1155.0000	367942.2188
1154.5000	366669.8438
1154.0000	369377.6563
1153.5000	368451.1875
1153.0000	372025.8125
1152.5000	370840.8750
1152.0000	372435.3438
1151.5000	368288.1563
1151.0000	370844.8750
1150.5000	370240.4688
1150.0000	372972.1250
1149.5000	371986.0313
1149.0000	373453.2500
1148.5000	374117.2813
1148.0000	374697.8125
1147.5000	375322.0625
1147.0000	375298.2188
1146.5000	374204.7500
1146.0000	377222.6875
1145.5000	376005.9688
1145.0000	377815.1563
1144.5000	377628.2813
1144.0000	380463.3125
1143.5000	379147.1875
1143.0000	378968.2500
1142.5000	381711.8438
1142.0000	382646.2500
1141.5000	380105.4375
1141.0000	382125.3750
1140.5000	382940.4688
1140.0000	383636.3125
1139.5000	383874.9063
1139.0000	386654.2500
1138.5000	385218.8438
1138.0000	382395.7500
1137.5000	384829.1875
1137.0000	387147.3125
1136.5000	387962.4375
1136.0000	389910.7813
1135.5000	391139.4063
1135.0000	391401.8438
1134.5000	392336.2500
1134.0000	394817.4063
1133.5000	392773.6563
1133.0000	395580.8438
1132.5000	394797.5313
1132.0000	392101.6563
1131.5000	394515.2188
1131.0000	394682.2188
1130.5000	396690.2188
1130.0000	399473.5625
1129.5000	396988.4063
1129.0000	399032.1875
1128.5000	399024.2500
1128.0000	399000.3750
1127.5000	399032.1875
1127.0000	399370.1563
1126.5000	399429.8125
1126.0000	398602.7500
1125.5000	398344.3125
1125.0000	399843.3438
1124.5000	399902.9688
1124.0000	402761.8750
1123.5000	403974.6250
1123.0000	401950.7188
1122.5000	405668.4688
1122.0000	404117.7500
1121.5000	406893.1563
1121.0000	401743.9688
1120.5000	406642.6563
1120.0000	407628.7500
1119.5000	408165.5313
1119.0000	408034.3125
1118.5000	406928.9375
1118.0000	407545.2500
1117.5000	411477.7188
1117.0000	408097.9375
1116.5000	409139.7188
1116.0000	409942.9063
1115.5000	411978.7188
1115.0000	410984.6563
1114.5000	415537.4375
1114.0000	412451.8750
1113.5000	413159.6563
1113.0000	413537.4063
1112.5000	416273.0313
1112.0000	415624.9063
1111.5000	415243.1875
1111.0000	417915.1875
1110.5000	414603.0000
1110.0000	416181.5625
1109.5000	415215.3438
1109.0000	416428.0938
1108.5000	415986.7500
1108.0000	417943.0313
1107.5000	415656.7188
1107.0000	412929.0313
1106.5000	418237.2813
1106.0000	417147.7813
1105.5000	418964.9063
1105.0000	420380.4375
1104.5000	416778.0000
1104.0000	418106.0625
1103.5000	418495.7188
1103.0000	421159.7813
1102.5000	423056.4375
1102.0000	425493.8438
1101.5000	426249.3125
1101.0000	430861.7188
1100.5000	434313.0625
1100.0000	434662.9688
1099.5000	438046.7188
1099.0000	439319.1250
1098.5000	445537.9063
1098.0000	446269.5313
1097.5000	449442.5313
1097.0000	448830.1875
1096.5000	449029.0000
1096.0000	448027.0000
1095.5000	444237.6875
1095.0000	439979.1563
1094.5000	438181.9063
1094.0000	432229.5313
1093.5000	433251.4375
1093.0000	424897.4063
1092.5000	426205.5938
1092.0000	422487.8438
1091.5000	420813.8438
1091.0000	418690.5625
1090.5000	417700.4688
1090.0000	418797.9063
1089.5000	417895.3125
1089.0000	415954.9375
1088.5000	417939.0625
1088.0000	414432.0313
1087.5000	419461.9375
1087.0000	416917.1563
1086.5000	417350.5625
1086.0000	415290.9063
1085.5000	416968.8438
1085.0000	417108.0313
1084.5000	415219.3125
1084.0000	417736.2813
1083.5000	418324.7500
1083.0000	417807.8438
1082.5000	418642.8438
1082.0000	419215.4063
1081.5000	419167.6875
1081.0000	417334.6563
1080.5000	417843.6250
1080.0000	419827.7500
1079.5000	418770.0938
1079.0000	419644.8438
1078.5000	419461.9375
1078.0000	422241.3125
1077.5000	420778.0625
1077.0000	422726.4063
1076.5000	423016.6563
1076.0000	423116.0625
1075.5000	424209.5313
1075.0000	423748.2813
1074.5000	425124.0625
1074.0000	425187.6875
1073.5000	425589.2813
1073.0000	427203.6250
1072.5000	428376.5938
1072.0000	427569.4375
1071.5000	428845.7813
1071.0000	428487.9375
1070.5000	430261.3125
1070.0000	430344.8125
1069.5000	430734.5000
1069.0000	432996.9375
1068.5000	430440.2500
1068.0000	432730.5313
1067.5000	432503.9063
1067.0000	432372.6875
1066.5000	434165.9375
1066.0000	432798.1250
1065.5000	434325.0000
1065.0000	436484.0938
1064.5000	437573.5625
1064.0000	433195.7500
1063.5000	437335.0000
1063.0000	438094.4375
1062.5000	435887.6563
1062.0000	438480.1250
1061.5000	438734.6250
1061.0000	440539.8125
1060.5000	439179.9375
1060.0000	440555.7188
1059.5000	442420.5625
1059.0000	440961.2813
1058.5000	441820.1563
1058.0000	444253.5938
1057.5000	444710.8438
1057.0000	444599.5313
1056.5000	447700.9688
1056.0000	444170.0938
1055.5000	448941.5313
1055.0000	447832.1875
1054.5000	447677.0938
1054.0000	448090.6250
1053.5000	448750.6875
1053.0000	450102.5938
1052.5000	449355.0625
1052.0000	451621.5000
1051.5000	449617.5000
1051.0000	452436.6250
1050.5000	449736.7813
1050.0000	454166.2813
1049.5000	450885.9063
1049.0000	454635.4688
1048.5000	454444.5938
1048.0000	457021.1875
1047.5000	456373.0625
1047.0000	454066.8750
1046.5000	457542.0625
1046.0000	458424.7813
1045.5000	457554.0000
1045.0000	457482.4375
1044.5000	461701.1875
1044.0000	460484.4688
1043.5000	462031.2188
1043.0000	463001.4063
1042.5000	462448.7188
1042.0000	462627.6250
1041.5000	462102.7813
1041.0000	464667.4375
1040.5000	463840.3750
1040.0000	464977.5625
1039.5000	465744.9688
1039.0000	469391.1563
1038.5000	466890.1250
1038.0000	469677.4375
1037.5000	469180.4375
1037.0000	470906.0938
1036.5000	471395.1563
1036.0000	470846.4688
1035.5000	473299.7813
1035.0000	470397.1563
1034.5000	473884.2813
1034.0000	473812.7188
1033.5000	473351.4688
1033.0000	479773.0313
1032.5000	478007.5938
1032.0000	477784.9375
1031.5000	477228.2813
1031.0000	478003.6250
1030.5000	478317.7500
1030.0000	478409.1875
1029.5000	478456.9063
1029.0000	480914.2188
1028.5000	482464.9375
1028.0000	483554.4063
1027.5000	485840.7188
1027.0000	483713.4688
1026.5000	485391.4063
1026.0000	485013.6875
1025.5000	487292.0313
1025.0000	485466.9688
1024.5000	489498.8438
1024.0000	488230.4375
1023.5000	488135.0000
1023.0000	490003.8125
1022.5000	493602.2813
1022.0000	493256.3438
1021.5000	493164.9063
1021.0000	494206.6563
1020.5000	492504.8438
1020.0000	493836.8750
1019.5000	494822.9688
1019.0000	496326.0000
1018.5000	496111.2813
1018.0000	496803.1250
1017.5000	496918.4375
1017.0000	498600.3750
1016.5000	501522.8750
1016.0000	499522.8438
1015.5000	500775.3750
1015.0000	499956.2500
1014.5000	501773.3750
1014.0000	504262.5000
1013.5000	507988.1875
1013.0000	507256.5625
1012.5000	506346.0313
1012.0000	510250.6563
1011.5000	510457.4375
1011.0000	508453.4063
1010.5000	510314.2813
1010.0000	508059.7813
1009.5000	509912.6875
1009.0000	510242.7188
1008.5000	511912.7188
1008.0000	512107.5625
1007.5000	510151.2500
1007.0000	514815.3438
1006.5000	514755.6875
1006.0000	514886.9063
1005.5000	515089.7188
1005.0000	514218.9063
1004.5000	517841.2500
1004.0000	517972.4375
1003.5000	521133.5313
1003.0000	520461.5625
1002.5000	520720.0000
1002.0000	523133.5625
1001.5000	523431.7813
1001.0000	524449.6875
1000.5000	525038.1875
1000.0000	526147.5625
999.5000	527511.3750
999.0000	527431.8750
998.5000	530549.1875
998.0000	530390.1250
997.5000	529586.9375
997.0000	532338.5000
996.5000	537125.8125
996.0000	534259.0000
995.5000	537523.4375
995.0000	537165.6250
994.5000	535738.1250
994.0000	538366.4375
993.5000	536891.2500
993.0000	539622.8750
992.5000	537956.8750
992.0000	538278.9375
991.5000	539165.6250
991.0000	539567.2500
990.5000	539304.8125
990.0000	539090.0625
989.5000	542151.7500
989.0000	542358.5000
988.5000	537801.8125
988.0000	543018.5625
987.5000	539917.1250
987.0000	543825.7500
986.5000	542450.0000
986.0000	545261.1875
985.5000	545296.9375
985.0000	544656.7500
984.5000	546513.6875
984.0000	547881.5000
983.5000	548299.0000
983.0000	548923.2500
982.5000	550676.7500
982.0000	552342.7500
981.5000	552505.8125
981.0000	554724.5000
980.5000	556975.0625
980.0000	554728.5000
979.5000	562366.8125
979.0000	563730.6250
978.5000	565623.3125
978.0000	564589.5000
977.5000	570621.3750
977.0000	572522.0000
976.5000	576307.3750
976.0000	577762.6875
975.5000	580740.8750
975.0000	581866.1250
974.5000	581011.2500
974.0000	574621.4375
973.5000	575261.6250
973.0000	569345.0625
972.5000	571178.0625
972.0000	569217.8125
971.5000	564529.8750
971.0000	566156.1250
970.5000	565830.0625
970.0000	564609.3750
969.5000	566343.0000
969.0000	566844.0000
968.5000	564963.2500
968.0000	567416.5625
967.5000	566128.3125
967.0000	567802.2500
966.5000	570040.8750
966.0000	572136.3125
965.5000	570657.1875
965.0000	563977.1875
964.5000	559348.8750
964.0000	552895.5000
963.5000	546020.6250
963.0000	543706.4375
962.5000	540322.6875
962.0000	536263.0000
961.5000	536175.5000
961.0000	534970.7500
960.5000	536509.5000
960.0000	540259.0625
959.5000	540012.5625
959.0000	543237.2500
958.5000	541265.0625
958.0000	545682.6250
957.5000	550362.6250
957.0000	553062.5000
956.5000	559841.8750
956.0000	566883.7500
955.5000	573357.0625
955.0000	592836.4375
954.5000	621099.3125
954.0000	679326.9375
953.5000	761781.5000
953.0000	855926.1250
952.5000	886813.3125
952.0000	824367.0000
951.5000	704512.1875
951.0000	612932.1875
950.5000	562581.5000
950.0000	536469.7500
949.5000	522147.4688
949.0000	512707.9688
948.5000	509244.6875
948.0000	508692.0000
947.5000	509292.4063
947.0000	508882.8438
946.5000	502516.9375
946.0000	495264.3438
945.5000	487315.9063
945.0000	476763.0625
944.5000	472234.1563
944.0000	462635.5938
943.5000	457351.2188
943.0000	445128.3438
942.5000	438396.6250
942.0000	432245.4375
941.5000	428197.6563
941.0000	427382.5313
940.5000	425680.7188
940.0000	428543.5938
939.5000	431175.8438
939.0000	435486.0625
938.5000	436694.8125
938.0000	441430.4688
937.5000	443494.1250
937.0000	451955.5000
936.5000	455267.6875
936.0000	465645.5625
935.5000	483093.1563
935.0000	512640.3750
934.5000	582943.6875
934.0000	737586.3125
933.5000	991550.5625
933.0000	1236747.2500
932.5000	1247125.2500
932.0000	968719.1875
931.5000	658602.9375
931.0000	489419.3125
930.5000	415469.8438
930.0000	386817.2813
929.5000	367822.9375
929.0000	354470.8438
928.5000	347739.1250
928.0000	339015.3438
927.5000	335353.2500
927.0000	330808.4375
926.5000	327456.5000
926.0000	328637.4375
925.5000	324287.4688
925.0000	324426.6250
924.5000	320203.9063
924.0000	320804.3125
923.5000	320108.4688
923.0000	319356.9688
922.5000	317515.9688
922.0000	319273.4688
921.5000	318681.0000
921.0000	318768.5000
920.5000	318518.0000
920.0000	316875.8125
919.5000	318028.9063
919.0000	318382.8125
918.5000	317706.8438
918.0000	318466.3125
917.5000	319118.4063
917.0000	317865.8750
916.5000	317333.0938
916.0000	317981.1875
915.5000	319345.0313
915.0000	317706.8438
914.5000	319126.3438
914.0000	317949.4063
913.5000	319535.9063
913.0000	320108.4688
912.5000	319233.7188
912.0000	319508.0625
911.5000	320458.3750
911.0000	321158.1875
910.5000	321126.3750
910.0000	320609.4688
909.5000	322124.4063
909.0000	323742.7188
908.5000	322748.6875
908.0000	322589.6250
907.5000	324068.7813
907.0000	324096.5938
906.5000	324537.9688
906.0000	322394.7813
905.5000	326712.9375
905.0000	323154.2500
904.5000	326800.4375
904.0000	324585.6875
903.5000	325957.4688
903.0000	325877.9375
902.5000	326518.1250
902.0000	327126.4688
901.5000	325150.3125
901.0000	327066.8438
900.5000	326589.6875
900.0000	329281.5938
899.5000	328462.4688
899.0000	329667.2813
898.5000	328144.3750
898.0000	328466.4688
897.5000	328776.5938
897.0000	330303.4688
896.5000	330498.3125
896.0000	329309.4063
895.5000	331627.5313
895.0000	331404.8750
894.5000	333138.5000
894.0000	331122.5625
893.5000	333810.4688
893.0000	330442.6250
892.5000	333432.7500
892.0000	332164.3438
891.5000	334649.4688
891.0000	333651.4375
890.5000	334200.1563
890.0000	334995.3750
889.5000	335488.4375
889.0000	335233.9688
888.5000	335222.0313
888.0000	336462.5938
887.5000	334510.2813
887.0000	337051.0938
886.5000	337655.4688
886.0000	337778.7188
885.5000	338641.5625
885.0000	336975.5313
884.5000	338442.7500
884.0000	336852.2813
883.5000	337854.2813
883.0000	338673.3750
882.5000	338717.1250
882.0000	339428.8438
881.5000	339047.1563
881.0000	340363.2813
880.5000	341416.9688
880.0000	341874.2188
879.5000	340446.7813
879.0000	340180.3750
878.5000	342641.6250
878.0000	341110.7813
877.5000	345309.6563
877.0000	344888.1875
876.5000	345933.9375
876.0000	342852.3750
875.5000	346570.1250
875.0000	347699.3750
874.5000	344780.8438
874.0000	346438.9063
873.5000	345993.5625
873.0000	345806.6875
872.5000	346224.1875
872.0000	347914.0938
871.5000	346057.1875
871.0000	345802.7188
870.5000	347369.3438
870.0000	348983.6875
869.5000	350482.7188
869.0000	350812.7500
868.5000	351409.1563
868.0000	349695.4375
867.5000	351305.7813
867.0000	351989.6875
866.5000	351802.8125
866.0000	351802.8125
865.5000	352892.2813
865.0000	352172.5938
864.5000	352283.9375
864.0000	353445.0000
863.5000	352959.8750
863.0000	354554.3438
862.5000	354951.9688
862.0000	354991.7188
861.5000	355138.8438
861.0000	356582.2188
860.5000	353997.6875
860.0000	354936.0625
859.5000	356252.1875
859.0000	358876.4688
858.5000	357687.5938
858.0000	359767.1563
857.5000	358924.1875
857.0000	359337.7188
856.5000	358415.2500
856.0000	357456.9688
855.5000	361111.1250
855.0000	363488.8750
854.5000	359874.5000
854.0000	363970.0000
853.5000	362164.8125
853.0000	363325.8438
852.5000	363146.9375
852.0000	363922.2813
851.5000	362630.0313
851.0000	364864.6563
850.5000	365480.9688
850.0000	366260.3125
849.5000	367139.0313
849.0000	365321.9063
848.5000	367807.0313
848.0000	369755.3750
847.5000	367369.6563
847.0000	368081.4063
846.5000	369548.6250
846.0000	366665.8750
845.5000	370534.7188
845.0000	370061.5625
844.5000	372232.5625
844.0000	372141.0938
843.5000	372272.3125
843.0000	373465.1875
842.5000	374196.8125
842.0000	375234.5938
841.5000	372984.0625
841.0000	375926.4688
840.5000	373600.3750
840.0000	377731.6563
839.5000	376733.6250
839.0000	376312.1563
838.5000	378538.8125
838.0000	376952.3125
837.5000	374904.5625
837.0000	377103.4063
836.5000	376745.5625
836.0000	377970.2188
835.5000	379902.6563
835.0000	377803.2188
834.5000	379155.1250
834.0000	379783.3750
833.5000	378507.0000
833.0000	381135.2813
832.5000	380761.5313
832.0000	382833.1250
831.5000	380670.0625
831.0000	383719.8125
830.5000	381898.7188
830.0000	383886.8125
829.5000	384630.3750
829.0000	384642.3125
828.5000	385859.0313
828.0000	386483.2813
827.5000	387171.1563
827.0000	388109.5625
826.5000	387159.2500
826.0000	389203.0000
825.5000	388053.8750
825.0000	388423.6875
824.5000	390141.4063
824.0000	392519.1563
823.5000	390133.4375
823.0000	391453.5313
822.5000	389664.2500
822.0000	394427.7500
821.5000	393533.0938
821.0000	395795.5625
820.5000	393656.3750
820.0000	396881.0625
819.5000	394081.8125
819.0000	396431.7500
818.5000	395743.8750
818.0000	397986.4375
817.5000	398944.7188
817.0000	399032.1875
816.5000	398877.1250
816.0000	400006.3750
815.5000	398976.5313
815.0000	398773.7500
814.5000	399282.6875
814.0000	402423.9063
813.5000	403501.4375
813.0000	404901.0625
812.5000	403294.6875
812.0000	403859.3125
811.5000	403982.5625
811.0000	403545.1875
810.5000	407052.1875
810.0000	406543.2500
809.5000	405899.0938
809.0000	406268.8750
808.5000	406097.9063
808.0000	406408.0625
807.5000	405342.4375
807.0000	410018.4375
806.5000	410264.9688
806.0000	411338.5625
805.5000	407107.8750
805.0000	412284.8750
804.5000	409020.4063
804.0000	410205.3438
803.5000	410690.4375
803.0000	413569.1875
802.5000	415056.3125
802.0000	412511.5313
801.5000	412034.3750
801.0000	415823.7188
800.5000	413441.9688
800.0000	413247.1250
799.5000	416463.8750
799.0000	418018.5625
798.5000	416563.2813
798.0000	418929.1250
797.5000	419084.1875
797.0000	420396.3438
796.5000	421943.0938
796.0000	421283.0313
795.5000	421521.6250
795.0000	424297.0000
794.5000	422193.5938
794.0000	422324.8125
793.5000	427863.6563
793.0000	423454.0625
792.5000	424440.1563
792.0000	426145.9375
791.5000	429096.2813
791.0000	426014.7188
790.5000	427299.0313
790.0000	427728.4688
789.5000	428388.5313
789.0000	429907.4375
788.5000	430539.6563
788.0000	432022.7813
787.5000	430313.0000
787.0000	433899.5313
786.5000	432022.7813
786.0000	435279.2813
785.5000	432873.6875
785.0000	436054.6563
784.5000	436424.4375
784.0000	438973.1875
783.5000	437641.1563
783.0000	439820.1250
782.5000	441935.4688
782.0000	439251.5313
781.5000	441386.7500
781.0000	443649.2188
780.5000	440770.4375
780.0000	443195.9063
779.5000	445331.1250
779.0000	445649.2500
778.5000	447498.1563
778.0000	447116.4688
777.5000	448814.2813
777.0000	448273.5313
776.5000	449780.5000
776.0000	449573.7500
775.5000	449335.1875
775.0000	451438.5938
774.5000	454838.2500
774.0000	453490.3125
773.5000	455697.0938
773.0000	456989.3750
772.5000	456738.8750
772.0000	456587.7813
771.5000	455128.5000
771.0000	460186.2500
770.5000	461176.3125
770.0000	459820.4375
769.5000	461562.0000
769.0000	457828.3438
768.5000	459331.3750
768.0000	457593.7500
767.5000	458599.7500
767.0000	453375.0000
766.5000	456070.8750
766.0000	454878.0000
765.5000	457768.7188
765.0000	456305.4688
764.5000	457267.7188
764.0000	460202.1563
763.5000	458261.7500
763.0000	458893.9688
762.5000	460941.7188
762.0000	459446.6563
761.5000	462369.1875
761.0000	463418.9063
760.5000	464182.3438
760.0000	467498.5000
759.5000	467927.9063
759.0000	469419.0000
758.5000	468349.4063
758.0000	467490.5313
757.5000	468202.2813
757.0000	471601.9375
756.5000	472031.3750
756.0000	470349.4375
755.5000	468731.1250
755.0000	469601.9063
754.5000	465279.7813
754.0000	466047.1875
753.5000	465796.6875
753.0000	464675.3750
752.5000	464969.6250
752.0000	461780.7188
751.5000	466190.3125
751.0000	466397.0938
750.5000	468011.4063
750.0000	464850.3438
749.5000	466345.3750
749.0000	463092.8438
748.5000	465080.9688
748.0000	466440.8125
747.5000	464051.1250
747.0000	465844.3750
746.5000	466281.7813
746.0000	468027.3125
745.5000	465915.9688
745.0000	469494.5313
744.5000	468039.2500
744.0000	469506.4688
743.5000	470524.3750
743.0000	470719.2188
742.5000	472703.3438
742.0000	474417.0938
741.5000	473518.4688
741.0000	475260.0313
740.5000	475009.5313
740.0000	477824.6875
739.5000	477947.9688
739.0000	480023.5313
738.5000	476771.0000
738.0000	479848.5938
737.5000	478270.0313
737.0000	480918.1875
736.5000	480496.7188
736.0000	481379.4375
735.5000	483327.7813
735.0000	483303.9063
734.5000	485765.1875
734.0000	488806.9688
733.5000	488246.3438
733.0000	489689.6875
732.5000	491463.0938
732.0000	492496.9063
731.5000	490198.6563
731.0000	493510.8438
730.5000	494866.7188
730.0000	493634.0938
729.5000	493920.3750
729.0000	494576.4688
728.5000	494373.6563
728.0000	497339.9063
727.5000	497375.7188
727.0000	499053.6563
726.5000	499642.1563
726.0000	504425.5313
725.5000	503121.3125
725.0000	506238.6563
724.5000	504763.5000
724.0000	509499.1563
723.5000	513427.6563
723.0000	512020.0625
722.5000	516020.1250
722.0000	517507.2500
721.5000	519332.3125
721.0000	519042.0625
720.5000	519952.5938
720.0000	521165.3438
719.5000	518346.2188
719.0000	513268.5938
718.5000	513252.6875
718.0000	507455.3750
717.5000	507455.3750
717.0000	504727.7188
716.5000	502660.0938
716.0000	503852.9375
715.5000	504445.4063
715.0000	503236.6250
714.5000	502966.2500
714.0000	499192.8438
713.5000	496186.8125
713.0000	495964.1563
712.5000	490381.5625
712.0000	486731.4063
711.5000	481013.6250
711.0000	474246.1250
710.5000	466039.2188
710.0000	458587.8125
709.5000	453518.1563
709.0000	444766.5313
708.5000	440794.2813
708.0000	432961.1563
707.5000	430559.5313
707.0000	427080.3438
706.5000	426149.9063
706.0000	423561.4063
705.5000	420579.2500
705.0000	420690.5938
704.5000	419605.0938
704.0000	419664.7188
703.5000	421537.5313
703.0000	419259.1563
702.5000	418670.6875
702.0000	417756.1563
701.5000	419982.8125
701.0000	419951.0000
700.5000	417744.2188
700.0000	415982.7500
699.5000	416515.5625
699.0000	414579.1563
698.5000	413775.9688
698.0000	416424.1250
697.5000	413115.9063
697.0000	417203.4688
696.5000	413616.9063
696.0000	414543.3750
695.5000	412849.5000
695.0000	412805.7813
694.5000	411274.9375
694.0000	412217.2813
693.5000	411843.5313
693.0000	408145.6563
692.5000	411163.5938
692.0000	411092.0313
691.5000	411099.9688
691.0000	408889.2188
690.5000	411764.0000
690.0000	409259.0000
689.5000	410952.8438
689.0000	409346.4688
688.5000	406121.7813
688.0000	406260.9375
687.5000	403505.4375
687.0000	401024.2813
686.5000	401346.3438
686.0000	400252.8750
685.5000	400559.0625
685.0000	397676.3125
684.5000	396944.6875
684.0000	399215.0938
683.5000	397545.0938
683.0000	399815.5000
682.5000	400618.6875
682.0000	400857.2813
681.5000	400924.8750
681.0000	402706.2188
680.5000	401724.0938
680.0000	403083.9375
679.5000	402841.4063
679.0000	405048.1875
678.5000	404865.2813
678.0000	405934.8750
677.5000	406125.7500
677.0000	407449.8125
676.5000	409294.7813
676.0000	410408.1250
675.5000	410070.1250
675.0000	410984.6563
674.5000	411107.9375
674.0000	413911.1563
673.5000	414276.9688
673.0000	415314.7500
672.5000	415628.8750
672.0000	416511.5938
671.5000	417088.1563
671.0000	418587.1875
670.5000	420813.8438
670.0000	418801.8750
669.5000	424265.1875
669.0000	421513.6563
668.5000	421875.5000
668.0000	425036.5938
667.5000	424642.9375
667.0000	426774.1875
666.5000	423676.7188
666.0000	423219.4688
665.5000	427867.6250
665.0000	426010.7500
664.5000	425943.1563
664.0000	426094.2500
663.5000	428774.2188
663.0000	428682.7500
662.5000	431319.0000
662.0000	432476.0625
661.5000	435080.4688
661.0000	433827.9688
660.5000	438849.9375
660.0000	439295.2500
659.5000	441776.4063
659.0000	443184.0000
658.5000	447537.9375
658.0000	450325.2500
657.5000	453192.0938
657.0000	456989.3750
656.5000	456210.0313
656.0000	457271.6875
655.5000	457872.0938
655.0000	460858.2188
654.5000	461402.9688
654.0000	462870.1875
653.5000	465108.7813
653.0000	464361.2500
652.5000	470003.5000
652.0000	475904.1875
651.5000	484115.0625
651.0000	491626.0938
650.5000	500850.9063
650.0000	507192.9688
649.5000	512326.2500
649.0000	511948.5000
648.5000	511157.2500
648.0000	504946.4063
647.5000	497510.9063
647.0000	485164.7813
646.5000	469339.4688
646.0000	455597.7188
645.5000	444702.9063
645.0000	437573.5625
644.5000	433482.0313
644.0000	432281.2188
643.5000	432499.9063
643.0000	433827.9688
642.5000	435748.4688
642.0000	434643.0938
641.5000	435223.6250
641.0000	436313.0938
640.5000	429899.4688
640.0000	424364.5938
639.5000	416825.7188
639.0000	405469.6563
638.5000	396356.2188
638.0000	384057.8125
637.5000	377230.6563
637.0000	370479.0625
636.5000	361254.2500
636.0000	357973.8750
635.5000	350745.1563
635.0000	345333.5313
634.5000	338971.5938
634.0000	339496.4688
633.5000	335353.2500
633.0000	335094.7813
632.5000	333257.7813
632.0000	333663.3438
631.5000	332796.5313
631.0000	334661.3750
630.5000	336160.4063
630.0000	333997.3750
629.5000	335146.4688
629.0000	334800.5625
628.5000	329551.9688
628.0000	327782.5625
627.5000	322339.1250
627.0000	318076.6250
626.5000	313985.1250
626.0000	310613.2813
625.5000	308788.2188
625.0000	304704.6563
624.5000	301396.4375
624.0000	302028.6563
623.5000	298267.1563
623.0000	299344.7188
622.5000	299205.5625
622.0000	296028.5625
621.5000	297738.3438
621.0000	294290.9688
620.5000	292350.5625
620.0000	291364.4688
619.5000	290267.0313
619.0000	290334.6250
618.5000	286306.7500
618.0000	287018.4688
617.5000	286513.5000
617.0000	284696.3750
616.5000	283837.5313
616.0000	285348.4688
615.5000	285026.4063
615.0000	286056.2500
614.5000	283054.2188
614.0000	283074.0938
613.5000	282732.1250
613.0000	285702.3438
612.5000	285356.4375
612.0000	285909.1250
611.5000	286426.0313
611.0000	287320.6875
610.5000	287292.8438
610.0000	287956.8750
609.5000	287575.1563
609.0000	288931.0313
608.5000	292020.5625
608.0000	291945.0000
607.5000	292947.0000
607.0000	293869.5000
606.5000	292899.2813
606.0000	296116.0313
605.5000	298465.9688
605.0000	298434.1563
604.5000	300676.7500
604.0000	302863.6563
603.5000	300346.7188
603.0000	301678.7500
602.5000	303408.4063
602.0000	301205.5938
601.5000	302243.3750
601.0000	305134.0625
600.5000	306159.9375
600.0000	307833.9063
599.5000	307992.9688
599.0000	307814.0313
598.5000	309042.6875
598.0000	308470.1250
597.5000	311018.8750
597.0000	310935.3750
596.5000	312271.3750
596.0000	314649.1250
595.5000	314446.3438
595.0000	318231.6875
594.5000	317659.1250
594.0000	318319.1875
593.5000	319659.1563
593.0000	319810.2500
592.5000	321293.3750
592.0000	321305.3125
591.5000	321615.4688
591.0000	321480.2500
590.5000	322593.5938
590.0000	321420.6250
589.5000	326768.6250
589.0000	325786.5000
588.5000	327190.0938
588.0000	326772.5938
587.5000	328816.3750
587.0000	331039.0625
586.5000	329885.9688
586.0000	330565.9063
585.5000	329190.1250
585.0000	328705.0313
584.5000	330271.6563
584.0000	330852.1875
583.5000	332736.9063
583.0000	332188.1875
582.5000	332144.4375
582.0000	334283.6563
581.5000	338084.9063
581.0000	339098.8438
580.5000	343377.2188
580.0000	344804.6875
579.5000	348375.3125
579.0000	354614.0000
578.5000	356291.9375
578.0000	361795.0313
577.5000	364840.7813
577.0000	369385.5938
576.5000	376149.1250
576.0000	386177.1250
575.5000	393763.7188
575.0000	404121.7500
574.5000	414420.1250
574.0000	425780.1250
573.5000	437724.6563
573.0000	449140.3438
572.5000	458214.0625
572.0000	467327.5000
571.5000	484083.2500
571.0000	513379.9375
570.5000	538652.6875
570.0000	554680.8125
569.5000	553682.7500
569.0000	554482.0000
568.5000	558816.0625
568.0000	549543.5625
567.5000	486556.4375
567.0000	415171.6250
566.5000	357532.5313
566.0000	330323.3438
565.5000	314299.2188
565.0000	292219.3438
564.5000	265801.4375
564.0000	238624.0781
563.5000	219275.8594
563.0000	209931.7656
562.5000	201776.5625
562.0000	196810.2813
561.5000	192086.5469
561.0000	186289.2500
560.5000	185271.3438
560.0000	180002.8594
559.5000	178269.2344
559.0000	173970.9531
558.5000	170094.1563
558.0000	168670.6719
557.5000	163270.9844
557.0000	161966.7969
556.5000	162137.7656
556.0000	159099.9531
555.5000	160090.0156
555.0000	159704.3281
554.5000	162284.8906
554.0000	163084.1094
553.5000	164774.0000
553.0000	165354.5156
552.5000	167827.7188
552.0000	169036.4844
551.5000	170758.1875
551.0000	172607.1250
550.5000	174265.2031
550.0000	173712.5000
549.5000	174805.9688
549.0000	172750.2656
548.5000	168988.7656
548.0000	161127.8125
547.5000	147747.8750
547.0000	133425.5781
546.5000	123393.6094
546.0000	116781.1797
545.5000	108959.9844
545.0000	103389.3203
544.5000	99623.8516
544.0000	95098.9297
543.5000	91882.1797
543.0000	87723.0625
542.5000	86283.6797
542.0000	84554.0313
541.5000	82192.1641
541.0000	81114.6094
540.5000	79412.7969
540.0000	79722.9375
539.5000	77774.5938
539.0000	78005.2188
538.5000	75643.3516
538.0000	75822.2813
537.5000	75587.6797
537.0000	76219.8984
536.5000	75659.2578
536.0000	76367.0234
535.5000	74756.6563
535.0000	76510.1641
534.5000	77822.3125
534.0000	79281.5781
533.5000	83007.2813
533.0000	86772.7500
532.5000	94379.2344
532.0000	104940.0391
531.5000	121492.9844
531.0000	141151.3438
530.5000	151974.5781
530.0000	132705.8906
529.5000	100097.0156
529.0000	77206.0000
528.5000	69496.1328
528.0000	65977.1953
527.5000	64633.2344
527.0000	63893.6602
526.5000	63615.3242
526.0000	62175.9375
525.5000	62124.2500
525.0000	62231.6055
524.5000	62307.1523
524.0000	62008.9375
523.5000	62028.8203
523.0000	60668.9570
522.5000	60859.8164
522.0000	60434.3594
521.5000	60657.0273
521.0000	61380.6992
520.5000	60521.8359
520.0000	60410.5039
519.5000	60354.8359
519.0000	60557.6250
518.5000	58979.0703
518.0000	59253.4258
517.5000	58708.6875
517.0000	59006.9023
516.5000	57988.9922
516.0000	59480.0703
515.5000	59766.3594
515.0000	60056.6211
514.5000	59221.6172
514.0000	58943.2852
513.5000	59340.9023
513.0000	59086.4258
512.5000	59002.9258
512.0000	59531.7617
511.5000	59905.5234
511.0000	59682.8594
510.5000	60430.3828
510.0000	59038.7109
509.5000	58967.1406
509.0000	58728.5664
508.5000	58732.5430
508.0000	59221.6172
507.5000	59674.9063
507.0000	59416.4531
506.5000	59261.3789
506.0000	59710.6914
505.5000	59718.6445
505.0000	59309.0938
504.5000	60227.5977
504.0000	59746.4766
503.5000	60148.0742
503.0000	58843.8789
502.5000	60406.5273
502.0000	59154.0234
501.5000	58963.1641
501.0000	60120.2422
500.5000	59706.7148
500.0000	60513.8867
499.5000	60167.9531
499.0000	59937.3359
498.5000	59841.9063
498.0000	61058.6250
497.5000	60883.6719
497.0000	61018.8633
496.5000	60267.3594
496.0000	60390.6211
495.5000	60760.4102
495.0000	61169.9570
494.5000	60505.9336
494.0000	60661.0039
493.5000	61173.9336
493.0000	60156.0273
492.5000	60664.9805
492.0000	61082.4844
491.5000	61010.9102
491.0000	61102.3633
490.5000	61106.3398
490.0000	61384.6758
489.5000	60175.9063
489.0000	60645.1016
488.5000	61054.6484
488.0000	61957.2461
487.5000	61098.3867
487.0000	62239.5586
486.5000	62207.7500
486.0000	61241.5313
485.5000	62112.3203
485.0000	61313.1016
484.5000	62251.4883
484.0000	60716.6719
483.5000	61627.2227
483.0000	61881.6992
482.5000	61325.0313
482.0000	61730.6055
481.5000	60637.1484
481.0000	60748.4805
480.5000	61535.7695
480.0000	61162.0078
479.5000	61841.9375
479.0000	61503.9609
478.5000	61678.9141
478.0000	61098.3867
477.5000	62004.9609
477.0000	61165.9844
476.5000	61690.8438
476.0000	60903.5547
475.5000	60505.9336
475.0000	61126.2188
474.5000	61297.1992
474.0000	62140.1523
473.5000	61448.2930
473.0000	61519.8633
472.5000	61329.0078
472.0000	61869.7695
471.5000	61158.0313
471.0000	61706.7461
470.5000	61639.1523
470.0000	61814.1055
469.5000	60816.0781
469.0000	61400.5781
468.5000	61130.1953
468.0000	61977.1289
467.5000	61698.7930
467.0000	61575.5313
466.5000	61885.6758
466.0000	62545.7266
465.5000	61881.6992
465.0000	61006.9336
464.5000	62828.0352
464.0000	62084.4883
463.5000	62040.7500
463.0000	62275.3438
462.5000	61488.0547
462.0000	62521.8672
461.5000	61460.2227
461.0000	62501.9883
460.5000	61857.8438
460.0000	63456.2773
459.5000	62378.7266
459.0000	62553.6797
458.5000	62895.6328
458.0000	63217.7070
457.5000	62649.1094
457.0000	62999.0156
456.5000	63098.4180
456.0000	63802.2070
455.5000	62490.0586
455.0000	63503.9922
454.5000	63122.2773
454.0000	62748.5117
453.5000	62935.3945
453.0000	63575.5625
452.5000	62418.4883
452.0000	62398.6055
451.5000	62879.7266
451.0000	63480.1367
450.5000	63766.4219
450.0000	64756.4961
449.5000	63663.0391
449.0000	63289.2773
448.5000	62923.4648
448.0000	64338.9961
447.5000	64327.0664
447.0000	63794.2539
446.5000	63245.5391
446.0000	64494.0664
445.5000	63277.3477
445.0000	64307.1875
444.5000	63985.1133
444.0000	65456.3086
443.5000	64346.9492
443.0000	63989.0898
442.5000	64569.6172
442.0000	63782.3281
441.5000	65217.7383
441.0000	64374.7813
440.5000	64728.6641
440.0000	65189.9023
439.5000	65018.9258
439.0000	65456.3086
438.5000	64919.5234
438.0000	65456.3086
437.5000	64935.4258
437.0000	64923.4961
436.5000	65460.2852
436.0000	64911.5703
435.5000	64680.9492
435.0000	65010.9727
434.5000	65074.5938
434.0000	65667.0469
433.5000	65794.2891
433.0000	66187.9297
432.5000	65384.7383
432.0000	65595.4766
431.5000	65814.1719
431.0000	65384.7383
430.5000	65424.5000
430.0000	65790.3125
429.5000	65881.7656
429.0000	65845.9766
428.5000	65364.8555
428.0000	66402.6484
427.5000	66291.3125
427.0000	66434.4531
426.5000	67269.4609
426.0000	66346.9766
425.5000	67818.1797
425.0000	67436.4609
424.5000	66891.7188
424.0000	66919.5547
423.5000	66609.4063
423.0000	65973.2188
422.5000	66136.2422
422.0000	66323.1250
421.5000	66963.2891
421.0000	66569.6484
420.5000	67325.1250
420.0000	66764.4844
419.5000	67774.4375
419.0000	67627.3203
418.5000	68148.2031
418.0000	67686.9609
417.5000	67977.2266
417.0000	68080.6094
416.5000	66919.5547
416.0000	68187.9609
415.5000	67905.6563
415.0000	68585.5859
414.5000	68144.2266
414.0000	67937.4609
413.5000	68740.6563
413.0000	69122.3750
412.5000	69969.3047
412.0000	71197.9531
411.5000	71058.7813
411.0000	69508.0625
410.5000	69531.9219
410.0000	69476.2578
409.5000	69178.0391
409.0000	70001.1172
408.5000	70040.8750
408.0000	70064.7344
407.5000	69460.3516
407.0000	70442.4688
406.5000	71360.9766
406.0000	72311.2891
405.5000	73277.5078
405.0000	73257.6250
404.5000	72199.9531
404.0000	70581.6406
403.5000	70215.8281
403.0000	70434.5234
402.5000	69965.3281
402.0000	69770.4922
401.5000	69901.7109
401.0000	70728.7578
400.5000	70060.7578
400.0000	71925.5938
399.5000	71392.7891
399.0000	71969.3359
398.5000	71913.6719
398.0000	71858.0000
397.5000	70840.0938
397.0000	70203.8984
396.5000	68947.4219
396.0000	68840.0625
395.5000	68665.1094
395.0000	69424.5625
394.5000	68688.9688
394.0000	68863.9219
393.5000	68267.4844
393.0000	69456.3750
392.5000	68490.1563
392.0000	68593.5391
391.5000	69086.5859
391.0000	67969.2734
390.5000	68991.1563
390.0000	69770.4922
389.5000	68732.7031
389.0000	69981.2344
388.5000	69412.6328
388.0000	69412.6328
387.5000	69015.0156
387.0000	68740.6563
386.5000	68756.5625
386.0000	68152.1797
385.5000	68358.9375
385.0000	69329.1328
384.5000	68414.6094
384.0000	68414.6094
383.5000	68541.8438
383.0000	68009.0313
382.5000	69094.5391
382.0000	68462.3203
381.5000	69130.3203
381.0000	69007.0625
380.5000	69400.7031
380.0000	68641.2500
379.5000	67969.2734
379.0000	68764.5156
378.5000	69420.5859
378.0000	69265.5156
377.5000	69599.5156
377.0000	69376.8516
376.5000	70343.0703
376.0000	72056.8125
375.5000	75889.8750
375.0000	82895.9531
374.5000	90546.1719
374.0000	89552.1172
373.5000	80088.7500
373.0000	71110.4766
372.5000	68148.2031
372.0000	69011.0391
371.5000	68923.5625
371.0000	69317.2031
370.5000	71301.3359
370.0000	71889.8125
369.5000	78227.8828
369.0000	88367.2109
368.5000	98164.5859
368.0000	96200.3359
367.5000	83377.0703
367.0000	72784.4609
366.5000	67356.9375
366.0000	67174.0313
365.5000	64669.0195
365.0000	64633.2344
364.5000	65742.5938
364.0000	66187.9297
363.5000	65873.8125
363.0000	64637.2109
362.5000	64724.6875
362.0000	65392.6914
361.5000	64943.3789
361.0000	65432.4531
360.5000	64665.0430
360.0000	64633.2344
359.5000	64883.7344
359.0000	64633.2344
358.5000	65376.7852
358.0000	64832.0469
357.5000	65130.2617
357.0000	65213.7617
356.5000	65508.0000
356.0000	64895.6641
355.5000	65118.3320
355.0000	65249.5469
354.5000	65957.3125
354.0000	64871.8086
353.5000	63909.5664
353.0000	65647.1641
352.5000	65118.3320
352.0000	65682.9531
351.5000	66068.6484
351.0000	65698.8594
350.5000	65893.6953
350.0000	66080.5703
349.5000	65965.2656
349.0000	66629.2891
348.5000	66128.2891
348.0000	66032.8594
347.5000	65428.4766
347.0000	65297.2617
346.5000	66263.4766
346.0000	65619.3359
345.5000	66164.0703
345.0000	66426.5000
344.5000	66020.9297
344.0000	65865.8594
343.5000	66144.1953
343.0000	66553.7422
342.5000	66116.3594
342.0000	66617.3594
341.5000	65818.1406
341.0000	66016.9531
340.5000	67345.0078
340.0000	65849.9531
339.5000	67496.1016
339.0000	66832.0781
338.5000	67094.5078
338.0000	66780.3828
337.5000	67213.7891
337.0000	67046.7891
336.5000	66999.0781
336.0000	66756.5313
335.5000	67814.2031
335.0000	67062.6953
334.5000	66943.4141
334.0000	67281.3906
333.5000	66867.8594
333.0000	67134.2656
332.5000	67460.3203
332.0000	67396.6953
331.5000	67794.3203
331.0000	67591.5313
330.5000	68267.4844
330.0000	67679.0078
329.5000	68172.0547
329.0000	67790.3438
328.5000	68247.6094
328.0000	68514.0156
327.5000	68331.1094
327.0000	69034.8984
326.5000	67909.6250
326.0000	67706.8438
325.5000	68951.3984
325.0000	68828.1328
324.5000	68875.8438
324.0000	69178.0391
323.5000	69408.6563
323.0000	67782.3906
322.5000	69500.1094
322.0000	69090.5625
321.5000	68736.6797
321.0000	69237.6797
320.5000	69201.8984
320.0000	68983.2031
319.5000	69997.1406
319.0000	69237.6797
318.5000	69631.3281
318.0000	68661.1328
317.5000	70478.2578
317.0000	70128.3516
316.5000	69774.4688
316.0000	70307.2813
315.5000	69746.6328
315.0000	68665.1094
314.5000	70072.6875
314.0000	69997.1406
313.5000	69885.8047
313.0000	69909.6641
312.5000	69444.4453
312.0000	70176.0703
311.5000	69726.7578
311.0000	70466.3281
310.5000	69957.3750
310.0000	70390.7813
309.5000	69408.6563
309.0000	70092.5625
308.5000	70124.3750
308.0000	70168.1172
307.5000	70231.7344
307.0000	70172.0938
306.5000	70394.7578
306.0000	71317.2344
305.5000	71046.8594
305.0000	71488.2109
304.5000	70692.9766
304.0000	71380.8594
303.5000	71007.0938
303.0000	71969.3359
302.5000	71448.4531
302.0000	71023.0000
301.5000	70875.8750
301.0000	72084.6484
300.5000	70752.6172
300.0000	71245.6641
299.5000	70899.7344
299.0000	71603.5234
298.5000	70144.2578
298.0000	71635.3359
297.5000	72331.1719
297.0000	71424.5938
296.5000	71007.0938
296.0000	71353.0234
295.5000	71094.5703
295.0000	71301.3359
294.5000	70537.8984
294.0000	71174.0938
293.5000	71345.0703
293.0000	71019.0234
292.5000	71881.8594
292.0000	71520.0234
291.5000	72478.2891
291.0000	71452.4297
290.5000	73380.8906
290.0000	73400.7734
289.5000	75086.6797
289.0000	75229.8281
288.5000	76001.2109
288.0000	77082.7344
287.5000	78776.6016
287.0000	78494.2891
286.5000	81444.6328
286.0000	86319.4609
285.5000	93118.7734
285.0000	100311.7344
284.5000	103118.9375
284.0000	93170.4688
283.5000	82339.2813
283.0000	75233.8047
282.5000	72438.5313
282.0000	71993.1953
281.5000	70589.5938
281.0000	71345.0703
280.5000	71297.3594
280.0000	71106.5000
279.5000	70780.4531
279.0000	70474.2813
278.5000	70661.1641
278.0000	71122.4063
277.5000	70780.4531
277.0000	71273.5000
276.5000	71281.4531
276.0000	70637.3047
275.5000	70593.5703
275.0000	72482.2656
274.5000	71969.3359
274.0000	72211.8828
273.5000	72064.7656
273.0000	71730.7656
272.5000	72863.9844
272.0000	72939.5313
271.5000	73058.8125
271.0000	73309.3203
270.5000	75444.5391
270.0000	75655.2813
269.5000	75969.3984
269.0000	75508.1563
268.5000	74418.6797
268.0000	74363.0156
267.5000	72820.2422
267.0000	72895.7891
266.5000	72522.0313
266.0000	72168.1484
265.5000	72426.6016
265.0000	72545.8828
264.5000	73631.3906
264.0000	73126.4141
263.5000	71380.8594
263.0000	71440.5000
262.5000	71174.0938
262.0000	72032.9531
261.5000	72017.0469
261.0000	71810.2891
260.5000	71941.5000
260.0000	71114.4531
259.5000	71535.9297
259.0000	72573.7188
258.5000	72275.5000
258.0000	72275.5000
257.5000	72040.9063
257.0000	72180.0781
256.5000	73396.7969
256.0000	73396.7969
255.5000	72128.3828
255.0000	72450.4531
254.5000	72450.4531
254.0000	73297.3906
253.5000	73190.0313
253.0000	73249.6719
252.5000	73357.0313
252.0000	73217.8672
251.5000	72192.0000
251.0000	73691.0313
250.5000	72529.9844
250.0000	73130.3906
249.5000	72923.6250
249.0000	72887.8359
248.5000	72681.0781
248.0000	73635.3672
247.5000	73468.3672
247.0000	72995.1953
246.5000	74048.8906
246.0000	73619.4609
245.5000	73575.7266
245.0000	74386.8672
244.5000	74597.6094
244.0000	74044.9141
243.5000	74796.4219
243.0000	73905.7500
242.5000	74907.7500
242.0000	74999.2031
241.5000	74816.2969
241.0000	75182.1094
240.5000	75134.3984
240.0000	74128.4141
239.5000	73905.7500
239.0000	74585.6797
238.5000	73516.0781
238.0000	75150.2969
237.5000	75273.5625
237.0000	74541.9375
236.5000	75209.9453
236.0000	74776.5391
235.5000	75110.5391
235.0000	74577.7266
234.5000	75241.7500
234.0000	75372.9688
233.5000	75881.9219
233.0000	75325.2500
232.5000	75738.7813
232.0000	75750.7109
231.5000	75806.3750
231.0000	76502.2109
230.5000	75810.3516
230.0000	75464.4219
229.5000	75710.9453
229.0000	75365.0156
228.5000	75333.2031
228.0000	75257.6563
227.5000	76530.0469
227.0000	76307.3750
226.5000	76772.5938
226.0000	76820.3047
225.5000	76207.9688
225.0000	75504.1797
224.5000	76323.2813
224.0000	76430.6406
223.5000	76104.5938
223.0000	76068.8047
222.5000	75714.9219
222.0000	76534.0234
221.5000	76792.4766
221.0000	76446.5469
220.5000	76426.6641
220.0000	76132.4219
219.5000	77042.9766
219.0000	77492.2891
218.5000	76351.1172
218.0000	76267.6172
217.5000	77233.8359
217.0000	77373.0000
216.5000	76545.9453
216.0000	77003.2109
215.5000	77615.5469
215.0000	77353.1172
214.5000	76076.7578
214.0000	77555.9063
213.5000	76943.5703
213.0000	77309.3828
212.5000	77333.2344
212.0000	78160.2891
211.5000	77122.5000
211.0000	76740.7813
210.5000	77516.1406
210.0000	77730.8594
209.5000	77269.6172
209.0000	78319.3359
208.5000	77905.8125
208.0000	78609.6016
207.5000	77790.5000
207.0000	78553.9297
206.5000	78355.1250
206.0000	78585.7422
205.5000	77913.7656
205.0000	78462.4844
204.5000	78633.4609
204.0000	79392.9141
203.5000	79774.6250
203.0000	79440.6250
202.5000	79090.7188
202.0000	80347.2031
201.5000	80812.4219
201.0000	83210.0703
200.5000	84331.3594
200.0000	86335.3672
199.5000	88251.8984
199.0000	89794.6719
198.5000	89575.9766
198.0000	85182.2656
197.5000	83126.5703
197.0000	81472.4688
196.5000	79054.9375
196.0000	79551.9609
195.5000	79794.5078
195.0000	79333.2734
194.5000	80056.9375
194.0000	79583.7734
193.5000	79555.9375
193.0000	80271.6563
192.5000	78907.8125
192.0000	80657.3438
191.5000	80076.8203
191.0000	78160.2891
190.5000	79679.2031
190.0000	79452.5547
189.5000	80577.8203
189.0000	80506.2500
188.5000	79631.4844
188.0000	81722.9688
187.5000	81126.5391
187.0000	80410.8203
186.5000	81357.1563
186.0000	80593.7266
185.5000	81695.1328
185.0000	81488.3750
184.5000	82152.3984
184.0000	81730.9219
183.5000	82068.8984
183.0000	81838.2813
182.5000	81337.2813
182.0000	81448.6094
181.5000	81870.0859
181.0000	82172.2813
180.5000	82371.0938
180.0000	83249.8359
179.5000	82351.2109
179.0000	83241.8828
178.5000	82430.7344
178.0000	82052.9922
177.5000	83154.4063
177.0000	83341.2891
176.5000	83070.9063
176.0000	83043.0703
175.5000	82343.2578
175.0000	83301.5234
174.5000	82621.5938
174.0000	83583.8359
173.5000	83333.3359
173.0000	83225.9766
172.5000	82840.2813
172.0000	83993.3828
171.5000	83723.0000
171.0000	84092.7891
170.5000	85114.6719
170.0000	84987.4375
169.5000	85289.6250
169.0000	85023.2188
168.5000	85444.6953
168.0000	85472.5313
167.5000	85814.4844
167.0000	84581.8594
166.5000	85043.1016
166.0000	85472.5313
165.5000	85552.0547
165.0000	85933.7734
164.5000	86840.3438
164.0000	86653.4688
163.5000	88466.6172
163.0000	88697.2344
162.5000	88037.1875
162.0000	88860.2578
161.5000	88506.3750
161.0000	87059.0391
160.5000	87416.8984
160.0000	87742.9453
159.5000	87146.5156
159.0000	86792.6328
158.5000	87878.1406
158.0000	86788.6563
157.5000	88395.0469
157.0000	88645.5469
156.5000	88645.5469
156.0000	88832.4297
155.5000	88669.3984
155.0000	88593.8516
154.5000	88343.3516
154.0000	89369.2109
153.5000	90092.8828
153.0000	90335.4297
152.5000	90243.9766
152.0000	89862.2656
151.5000	90243.9766
151.0000	90824.5078
150.5000	90796.6719
150.0000	91007.4141
149.5000	90498.4609
149.0000	91838.4375
148.5000	91234.0547
148.0000	90812.5781
147.5000	91639.6250
147.0000	91810.6016
146.5000	91830.4844
146.0000	91023.3203
145.5000	91659.5078
145.0000	92065.0859
144.5000	92919.9688
144.0000	92009.4141
143.5000	93448.8047
143.0000	93591.9453
142.5000	93627.7344
142.0000	94029.3281
141.5000	94005.4688
141.0000	94438.8750
140.5000	93440.8516
140.0000	95122.7891
139.5000	93305.6563
139.0000	93870.2813
138.5000	94315.6172
138.0000	93822.5625
137.5000	93317.5859
137.0000	95886.2188
136.5000	95424.9766
136.0000	94880.2344
135.5000	94657.5703
135.0000	94681.4297
134.5000	94013.4219
134.0000	94498.5234
133.5000	95552.2188
133.0000	94446.8281
132.5000	95448.8359
132.0000	94176.4453
131.5000	93886.1875
131.0000	93043.2266
130.5000	92375.2266
130.0000	93051.1797
129.5000	92403.0625
129.0000	94633.7109
128.5000	93874.2578
128.0000	95758.9766
127.5000	95353.4063
127.0000	98490.6328
126.5000	99759.0391
126.0000	102924.1016
125.5000	106252.1875
125.0000	112610.1406
124.5000	118928.3359
124.0000	130328.1172
123.5000	142698.0938
123.0000	156821.5781
122.5000	162543.3438
122.0000	159322.6094
121.5000	142113.5938
121.0000	124642.1406
120.5000	110164.7734
120.0000	102995.6719
119.5000	95703.3125
119.0000	92387.1563
118.5000	88800.6172
118.0000	88796.6406
117.5000	85901.9609
117.0000	84852.2422
116.5000	83738.9063
116.0000	84112.6719
115.5000	81830.3281
115.0000	81925.7578
114.5000	81850.2109
114.0000	81253.7813
113.5000	81245.8281
113.0000	81082.7969
112.5000	81062.9219
112.0000	80120.5547
111.5000	81432.7031
111.0000	80490.3438
110.5000	80215.9844
110.0000	80880.0156
109.5000	81814.4219
109.0000	81504.2813
108.5000	81532.1094
108.0000	81603.6797
107.5000	81524.1563
107.0000	81866.1094
106.5000	82868.1172
106.0000	82347.2344
105.5000	83094.7578
105.0000	83218.0234
104.5000	83703.1172
104.0000	84140.5000
103.5000	83870.1250
103.0000	84840.3125
102.5000	84772.7188
102.0000	85587.8438
101.5000	85595.7969
101.0000	85567.9609
100.5000	86450.6797
100.0000	86307.5391
99.5000	87373.1563
99.0000	87126.6328
98.5000	88283.7109
98.0000	87293.6328
97.5000	87806.5625
97.0000	88100.8047
96.5000	88430.8281
96.0000	89822.5000
95.5000	89067.0234
95.0000	89484.5234
94.5000	87492.4453
94.0000	87281.7031
93.5000	85611.7031
93.0000	84259.7891
92.5000	83062.9531
92.0000	80887.9688
91.5000	80880.0156
91.0000	80426.7266
90.5000	79969.4609
90.0000	79277.6016
89.5000	79933.6797
89.0000	79373.0313
88.5000	79333.2734
88.0000	77822.3125
87.5000	77770.6172
87.0000	77253.7109
86.5000	76426.6641
86.0000	74987.2734
85.5000	75464.4219
85.0000	74144.3203
84.5000	74498.2031
84.0000	74084.6797
83.5000	74911.7266
83.0000	76251.7109
82.5000	77301.4297
82.0000	79571.8438
81.5000	81945.6406
81.0000	85961.6094
80.5000	90518.3359
80.0000	98661.6094
79.5000	108936.1250
79.0000	124339.9531
78.5000	144209.0469
78.0000	167012.5938
77.5000	182495.9375
77.0000	191776.4063
76.5000	198094.6094
76.0000	208977.4844
75.5000	220699.3281
75.0000	220202.3125
74.5000	196146.2656
74.0000	155529.3125
73.5000	116387.5391
73.0000	89015.3359
72.5000	69444.4453
72.0000	58036.7070
71.5000	50517.7031
71.0000	44768.1094
70.5000	39447.9453
70.0000	36155.6445
69.5000	33630.7539
69.0000	31483.6016
68.5000	29845.4043
68.0000	28883.1641
67.5000	27089.8945
67.0000	26449.7246
66.5000	25598.8164
66.0000	24227.0254
65.5000	24219.0723
65.0000	23519.2617
64.5000	23952.6680
64.0000	23034.1641
63.5000	22791.6152
63.0000	21805.5156
62.5000	22016.2539
62.0000	21829.3730
61.5000	21988.4219
61.0000	22127.5879
60.5000	21988.4219
60.0000	21276.6797
59.5000	21153.4180
59.0000	21268.7285
58.5000	21785.6348
58.0000	21368.1328
57.5000	20795.5586
57.0000	21010.2754
56.5000	20553.0117
56.0000	20696.1543
55.5000	20867.1309
55.0000	20533.1289
54.5000	20731.9395
54.0000	20521.2012
53.5000	20004.2949
53.0000	19908.8652
52.5000	20115.6289
52.0000	20004.2949
51.5000	19527.1504
51.0000	20151.4141
50.5000	20079.8418
50.0000	19924.7695
49.5000	19543.0547
49.0000	20302.5098
48.5000	20044.0566
48.0000	19781.6270
47.5000	19904.8887
47.0000	20107.6758
46.5000	20175.2715
46.0000	20461.5586
45.5000	20382.0332
45.0000	19912.8418
44.5000	20055.9844
44.0000	20374.0820
43.5000	20354.2012
43.0000	20234.9141
42.5000	20421.7969
42.0000	20481.4395
41.5000	20497.3438
41.0000	20628.5586
40.5000	20727.9629
40.0000	20489.3906
39.5000	20211.0566
39.0000	21057.9883
38.5000	20401.9141
38.0000	20890.9883
37.5000	20469.5098
37.0000	21081.8457
36.5000	20986.4180
36.0000	21077.8691
35.5000	20894.9648
35.0000	21061.9648
34.5000	21069.9180
34.0000	21264.7520
33.5000	21113.6563
33.0000	21698.1582
32.5000	21566.9434
32.0000	21873.1113
31.5000	21960.5879
31.0000	21960.5879
30.5000	21996.3730
30.0000	22580.8770
29.5000	22147.4688
29.0000	22584.8516
28.5000	22179.2793
28.0000	23256.8320
27.5000	22616.6621
27.0000	23340.3320
26.5000	23610.7129
26.0000	23244.9023
25.5000	23996.4063
25.0000	23893.0234
24.5000	24203.1680
24.0000	24644.5273
23.5000	24346.3125
23.0000	25634.6016
22.5000	24962.6230
22.0000	25229.0293
21.5000	24775.7422
21.0000	24095.8105
20.5000	23232.9746
20.0000	22632.5664
19.5000	22191.2070
19.0000	22358.2090
18.5000	21650.4434
18.0000	22441.7090
17.5000	21352.2285
17.0000	21849.2539
16.5000	21578.8711
16.0000	22183.2559
15.5000	21650.4434
15.0000	21733.9434
14.5000	21499.3477
14.0000	20564.9395
13.5000	20238.8906
13.0000	19252.7910
12.5000	18401.8828
12.0000	18115.5957
11.5000	18222.9531
11.0000	17511.2129
10.5000	18071.8574
10.0000	17761.7148
9.5000	18875.0508
9.0000	19125.5527
8.5000	20513.2480
8.0000	21722.0156
7.5000	24107.7402
7.0000	26672.3926
6.5000	30270.8594
6.0000	34306.7070
5.5000	40119.9219
5.0000	50326.8438
4.5000	67301.2656
4.0000	86872.1563
3.5000	104514.5859
3.0000	106566.3047
2.5000	91818.5547
2.0000	62501.9883
1.5000	38664.6289
1.0000	22378.0898
0.5000	13865.0313
0.0000	8421.6055
-0.5000	5316.1880
-1.0000	3570.6333
-1.5000	2815.1541
-2.0000	2127.2705
-2.5000	1856.8884
-3.0000	1630.2446
-3.5000	1248.5288
-4.0000	1216.7191
-4.5000	994.0516
-5.0000	854.8844
-5.5000	675.9551
-6.0000	604.3834
-6.5000	457.2637
-7.0000	421.4779
-7.5000	365.8110
-8.0000	334.0013
-8.5000	302.1917
-9.0000	238.5724
-9.5000	194.8341
-10.0000	202.7865
-10.5000	178.9293
-11.0000	143.1434
-11.5000	147.1196
-12.0000	178.9293
-12.5000	127.2386
-13.0000	111.3338
-13.5000	147.1196
-14.0000	131.2148
-14.5000	119.2862
-15.0000	83.5003
-15.5000	119.2862
-16.0000	83.5003
-16.5000	91.4527
-17.0000	87.4765
-17.5000	107.3576
-18.0000	71.5717
-18.5000	95.4290
-19.0000	79.5241
-19.5000	79.5241
-20.0000	67.5955
